{
  "resourceType": "Bundle",
  "type": "collection",
  "entry": [
    {
      "fullUrl": "urn:uuid:patient-AND0010888",
      "resource": {
        "resourceType": "Patient",
        "id": "AND0010888",
        "text": {
          "status": "generated",
          "div": "<div>RMHC Patient: THIRAVIDAMANI</div>"
        },
        "identifier": [
          {
            "system": "http://rmhc.org/sid/policy-id",
            "value": "AND0010888"
          }
        ],
        "name": [
          {
            "text": "THIRAVIDAMANI"
          }
        ],
        "gender": "female",
        "telecom": [
          {
            "system": "phone",
            "value": "9786965307"
          }
        ],
        "address": [
          {
            "text": "135, Keela Theru, Athanangkottai",
            "city": "Athanangkottai",
            "extension": [
              {
                "url": "http://hl7.org/fhir/StructureDefinition/geolocation",
                "extension": [
                  {
                    "url": "latitude",
                    "valueDecimal": 10.5947
                  },
                  {
                    "url": "longitude",
                    "valueDecimal": 79.1702
                  }
                ]
              }
            ]
          }
        ]
      }
    },
    {
      "fullUrl": "urn:uuid:encounter-3336039",
      "resource": {
        "resourceType": "Encounter",
        "id": "3336039",
        "text": {
          "status": "generated",
          "div": "<div>Last visit encounter for patient</div>"
        },
        "status": "finished",
        "class": {
          "system": "http://terminology.hl7.org/CodeSystem/v3-ActCode",
          "code": "AMB",
          "display": "ambulatory"
        },
        "subject": {
          "reference": "urn:uuid:patient-AND0010888"
        },
        "period": {
          "start": "2013-02-07"
        }
      }
    },

    {
      "fullUrl": "urn:uuid:obs-height",
      "resource": {
        "resourceType": "Observation",
        "id": "height",
        "text": {
          "status": "generated",
          "div": "<div>Height observation</div>"
        },
        "status": "final",
        "code": { "text": "Body Height" },
        "subject": { "reference": "urn:uuid:patient-AND0010888" },
        "performer": [{ "reference": "urn:uuid:encounter-3336039" }],
        "valueQuantity": { "value": 159, "unit": "cm" },
        "effectiveDateTime": "2013-02-07"
      }
    },

    {
      "fullUrl": "urn:uuid:obs-weight",
      "resource": {
        "resourceType": "Observation",
        "id": "weight",
        "text": {
          "status": "generated",
          "div": "<div>Weight observation</div>"
        },
        "status": "final",
        "code": { "text": "Body Weight" },
        "subject": { "reference": "urn:uuid:patient-AND0010888" },
        "performer": [{ "reference": "urn:uuid:encounter-3336039" }],
        "valueQuantity": { "value": 83, "unit": "kg" },
        "effectiveDateTime": "2013-02-07"
      }
    },

    {
      "fullUrl": "urn:uuid:obs-bmi",
      "resource": {
        "resourceType": "Observation",
        "id": "bmi",
        "text": {
          "status": "generated",
          "div": "<div>BMI Observation</div>"
        },
        "status": "final",
        "code": { "text": "Body Mass Index" },
        "subject": { "reference": "urn:uuid:patient-AND0010888" },
        "performer": [{ "reference": "urn:uuid:encounter-3336039" }],
        "valueQuantity": { "value": 0.535483871, "unit": "kg/m2" },
        "effectiveDateTime": "2013-02-07"
      }
    },

    {
      "fullUrl": "urn:uuid:obs-wc",
      "resource": {
        "resourceType": "Observation",
        "id": "wc",
        "text": {
          "status": "generated",
          "div": "<div>Waist circumference</div>"
        },
        "status": "final",
        "code": { "text": "Waist Circumference" },
        "subject": { "reference": "urn:uuid:patient-AND0010888" },
        "performer": [{ "reference": "urn:uuid:encounter-3336039" }],
        "valueQuantity": { "value": 105, "unit": "cm" },
        "effectiveDateTime": "2013-02-07"
      }
    },

    {
      "fullUrl": "urn:uuid:obs-hc",
      "resource": {
        "resourceType": "Observation",
        "id": "hc",
        "text": {
          "status": "generated",
          "div": "<div>Hip circumference</div>"
        },
        "status": "final",
        "code": { "text": "Hip Circumference" },
        "subject": { "reference": "urn:uuid:patient-AND0010888" },
        "performer": [{ "reference": "urn:uuid:encounter-3336039" }],
        "valueQuantity": { "value": 114, "unit": "cm" },
        "effectiveDateTime": "2013-02-07"
      }
    },

    {
      "fullUrl": "urn:uuid:obs-wchr",
      "resource": {
        "resourceType": "Observation",
        "id": "wc-hc-ratio",
        "text": {
          "status": "generated",
          "div": "<div>Waist-hip ratio</div>"
        },
        "status": "final",
        "code": { "text": "Waist-Hip Ratio" },
        "subject": { "reference": "urn:uuid:patient-AND0010888" },
        "performer": [{ "reference": "urn:uuid:encounter-3336039" }],
        "valueQuantity": { "value": 0.921052632 },
        "effectiveDateTime": "2013-02-07"
      }
    },

    {
      "fullUrl": "urn:uuid:location-2000",
      "resource": {
        "resourceType": "Location",
        "id": "2000",
        "text": {
          "status": "generated",
          "div": "<div>Location for RMHC Service</div>"
        },
        "name": "RMHC Location",
        "position": {
          "longitude": 79.1702,
          "latitude": 10.5947
        }
      }
    },

    {
      "fullUrl": "urn:uuid:org-rmhc",
      "resource": {
        "resourceType": "Organization",
        "id": "rmhc",
        "text": {
          "status": "generated",
          "div": "<div>RMHC Andipatti Organization</div>"
        },
        "name": "RMHC Andipatti"
      }
    }
  ]
}
